images,location,trials_0.thisRepN,trials_0.thisTrialN,trials_0.thisN,trials_0.thisIndex,trials_1.thisRepN,trials_1.thisTrialN,trials_1.thisN,trials_1.thisIndex,trials_2.thisRepN,trials_2.thisTrialN,trials_2.thisN,trials_2.thisIndex,trials_3.thisRepN,trials_3.thisTrialN,trials_3.thisN,trials_3.thisIndex,text_11.started,text_11.stopped,Inst.started,Inst.stopped,stimuli_prac.started,stimuli_prac.stopped,click.x,click.y,click.leftButton,click.midButton,click.rightButton,click.time,click.started,click.stopped,text_14.started,text_14.stopped,mem_inst.keys,mem_inst.rt,No_inst.keys,No_inst.rt,participant,session,date,expName,psychopyVersion,frameRate,
,,,,,,,,,,,,,,,,,,27.128295000002254,None,29.31131560000358,None,31.763865599990822,None,-0.30375,0.0775,1,0,0,0.819435200013686,0.016318620007950813,None,,,,,,,,001,2021_Jul_23_0519,exp3,2021.2.0,59.73961890339507,
images/2.jpg,"(0.05, 0.01)",0,0,0,0,,,,,,,,,,,,,,,,,,,-0.07625,-0.1275,1,0,0,0.8880001999787055,0.016262219985947013,None,33.36299529997632,None,,,,,,001,2021_Jul_23_0519,exp3,2021.2.0,59.73961890339507,
images/27.jpg,"(-0.3, 0.15)",0,1,1,1,,,,,,,,,,,,,,,,,,,-0.07125,-0.115,1,0,0,0.2198869000421837,0.016228020016569644,None,35.57805929996539,None,,,,,,001,2021_Jul_23_0519,exp3,2021.2.0,59.73961890339507,
images/64.jpg,"(0.25, 0)",0,2,2,2,,,,,,,,,,,,,,,,,,,-0.07125,-0.115,1,0,0,0.22080210002604872,0.01624472002731636,None,36.822887199989054,None,,,,,,001,2021_Jul_23_0519,exp3,2021.2.0,59.73961890339507,
images/4.jpg,"(0.2, -0.3)",0,3,3,3,,,,,,,,,,,,,,,,,,,-0.07125,-0.115,1,0,0,0.20257819996913895,0.016180219943635166,None,37.57784569996875,None,,,,,,001,2021_Jul_23_0519,exp3,2021.2.0,59.73961890339507,
images/32.jpg,"(-0.3, 0.3)",0,4,4,4,,,,,,,,,,,,,,,,,,,-0.07125,-0.115,1,0,0,1.3804021999821998,0.01605522003956139,None,38.24274079996394,None,,,,,,001,2021_Jul_23_0519,exp3,2021.2.0,59.73961890339507,
images/79.jpg,"(0.1, -0.05)",0,5,5,5,,,,,,,,,,,,,,,,,,,-0.07125,-0.115,1,0,0,0.6211839999887161,0.01619622006546706,None,40.14860449999105,None,,,,,,001,2021_Jul_23_0519,exp3,2021.2.0,59.73961890339507,
images/8.jpg,"(-0.3, -0.3)",0,6,6,6,,,,,,,,,,,,,,,,,,,-0.07125,-0.115,1,0,0,0.45511109998915344,0.01633532001869753,None,41.44998179998947,None,,,,,,001,2021_Jul_23_0519,exp3,2021.2.0,59.73961890339507,
images/38.jpg,"(-0.3, -0.25)",0,7,7,7,,,,,,,,,,,,,,,,,,,-0.07125,-0.115,1,0,0,0.4366938000312075,0.016190719965379685,None,42.431585699960124,None,,,,,,001,2021_Jul_23_0519,exp3,2021.2.0,59.73961890339507,
images/87.jpg,"(-0.3, 0.05)",0,8,8,8,,,,,,,,,,,,,,,,,,,-0.07125,-0.115,1,0,0,0.5667459000251256,0.016271220054477453,None,43.43465670000296,None,,,,,,001,2021_Jul_23_0519,exp3,2021.2.0,59.73961890339507,
images/16.jpg,"(-0.25, 0.3)",0,9,9,9,,,,,,,,,,,,,,,,,,,-0.07125,-0.115,1,0,0,0.567967300012242,0.016047320037614554,None,44.56145340000512,None,,,,,,001,2021_Jul_23_0519,exp3,2021.2.0,59.73961890339507,
images/47.jpg,"(0, 0.3)",0,10,10,10,,,,,,,,,,,,,,,,,,,-0.07125,-0.115,1,0,0,0.538081799983047,0.016338719986379147,None,45.66467009996995,None,,,,,,001,2021_Jul_23_0519,exp3,2021.2.0,59.73961890339507,
images/100.jpg,"(0.3, 0.2)",0,11,11,11,,,,,,,,,,,,,,,,,,,-0.07125,-0.115,1,0,0,0.85324640001636,0.016199920035433024,None,46.772154599952046,None,,,,,,001,2021_Jul_23_0519,exp3,2021.2.0,59.73961890339507,
images/20.jpg,"(0.02, -0.3)",0,12,12,12,,,,,,,,,,,,,,,,,,,-0.07125,-0.115,1,0,0,0.595964299980551,0.016162919986527413,None,48.185883299971465,None,,,,,,001,2021_Jul_23_0519,exp3,2021.2.0,59.73961890339507,
images/55.jpg,"(-0.1, -0.3)",0,13,13,13,,,,,,,,,,,,,,,,,,,-0.07125,-0.115,1,0,0,0.6199120999663137,0.01632632006658241,None,49.37508520000847,None,,,,,,001,2021_Jul_23_0519,exp3,2021.2.0,59.73961890339507,
images/128.jpg,"(0.3, 0.1)",0,14,14,14,,,,,,,,,,,,,,,,,,,-0.07125,-0.115,1,0,0,0.7028316000360064,0.016164219996426255,None,50.53986899997108,None,,,,,,001,2021_Jul_23_0519,exp3,2021.2.0,59.73961890339507,
images/2.jpg,"(0.05, 0.01)",,,,,0,0,0,0,,,,,,,,,,,,,,,-0.07125,-0.115,1,0,0,0.451830499980133,0.016261020035017282,None,,,1,0.8812350999796763,,,,001,2021_Jul_23_0519,exp3,2021.2.0,59.73961890339507,
images/27.jpg,"(-0.3, 0.15)",,,,,0,1,1,1,,,,,,,,,,,,,,,-0.07125,-0.115,1,0,0,0.4691356999683194,0.0162702199886553,None,,,1,0.7084337000269443,,,,001,2021_Jul_23_0519,exp3,2021.2.0,59.73961890339507,
images/64.jpg,"(0.25, 0)",,,,,0,2,2,2,,,,,,,,,,,,,,,-0.07125,-0.115,1,0,0,0.5704683000221848,0.016352119971998036,None,,,1,0.26901659998111427,,,,001,2021_Jul_23_0519,exp3,2021.2.0,59.73961890339507,
images/4.jpg,"(0.2, -0.3)",,,,,0,3,3,3,,,,,,,,,,,,,,,-0.07125,-0.115,1,0,0,0.5185019000200555,0.016346819989848882,None,,,1,0.30041279998840764,,,,001,2021_Jul_23_0519,exp3,2021.2.0,59.73961890339507,
images/32.jpg,"(-0.3, 0.3)",,,,,0,4,4,4,,,,,,,,,,,,,,,-0.07125,-0.115,1,0,0,0.5702548999688588,0.01628651999635622,None,,,1,0.4164730000193231,,,,001,2021_Jul_23_0519,exp3,2021.2.0,59.73961890339507,
images/79.jpg,"(0.1, -0.05)",,,,,0,5,5,5,,,,,,,,,,,,,,,-0.07125,-0.115,1,0,0,0.9226177000091411,0.016318319947458804,None,,,1,0.49597250000806525,,,,001,2021_Jul_23_0519,exp3,2021.2.0,59.73961890339507,
images/8.jpg,"(-0.3, -0.3)",,,,,0,6,6,6,,,,,,,,,,,,,,,-0.07125,-0.115,1,0,0,0.8214167999685742,0.01626412000041455,None,,,1,0.25099169998429716,,,,001,2021_Jul_23_0519,exp3,2021.2.0,59.73961890339507,
images/38.jpg,"(-0.3, -0.25)",,,,,0,7,7,7,,,,,,,,,,,,,,,-0.07125,-0.115,1,0,0,0.8533101000357419,0.016240719996858388,None,,,1,0.25347060000058264,,,,001,2021_Jul_23_0519,exp3,2021.2.0,59.73961890339507,
images/87.jpg,"(-0.3, 0.05)",,,,,0,8,8,8,,,,,,,,,,,,,,,-0.07125,-0.115,1,0,0,0.9191018000128679,0.01631001994246617,None,,,1,0.39390199998160824,,,,001,2021_Jul_23_0519,exp3,2021.2.0,59.73961890339507,
images/16.jpg,"(-0.25, 0.3)",,,,,0,9,9,9,,,,,,,,,,,,,,,-0.07125,-0.115,1,0,0,0.5370504999882542,0.016240719996858388,None,,,1,0.4928745999932289,,,,001,2021_Jul_23_0519,exp3,2021.2.0,59.73961890339507,
images/47.jpg,"(0, 0.3)",,,,,0,10,10,10,,,,,,,,,,,,,,,-0.07125,-0.115,1,0,0,1.053830300050322,0.016282719967421144,None,,,1,0.6439355000038631,,,,001,2021_Jul_23_0519,exp3,2021.2.0,59.73961890339507,
images/100.jpg,"(0.3, 0.2)",,,,,0,11,11,11,,,,,,,,,,,,,,,-0.1225,-0.04625,1,0,0,2.0050703000160865,0.01621212001191452,None,,,1,2.4917653999873437,,,,001,2021_Jul_23_0519,exp3,2021.2.0,59.73961890339507,
images/20.jpg,"(0.02, -0.3)",,,,,0,12,12,12,,,,,,,,,,,,,,,-0.1225,-0.04625,1,0,0,1.0176001999643631,0.016209919936954975,None,,,1,0.43783989996882156,,,,001,2021_Jul_23_0519,exp3,2021.2.0,59.73961890339507,
images/55.jpg,"(-0.1, -0.3)",,,,,0,13,13,13,,,,,,,,,,,,,,,-0.1225,-0.04625,1,0,0,0.8858585000270978,0.016136919963173568,None,,,1,0.35515469999518245,,,,001,2021_Jul_23_0519,exp3,2021.2.0,59.73961890339507,
images/128.jpg,"(0.3, 0.1)",,,,,0,14,14,14,,,,,,,,,,,,,,,-0.1225,-0.04625,1,0,0,0.9035146000096574,0.01622551999753341,None,,,1,0.3336045000469312,,,,001,2021_Jul_23_0519,exp3,2021.2.0,59.73961890339507,
images/2.jpg,"(0.05, 0.01)",,,,,,,,,0,0,0,0,,,,,,,,,,,-0.1225,-0.04625,1,0,0,0.8055458999588154,0.016318320005666465,None,,,,,2,0.6460779999615625,,001,2021_Jul_23_0519,exp3,2021.2.0,59.73961890339507,
images/27.jpg,"(-0.3, 0.15)",,,,,,,,,0,1,1,1,,,,,,,,,,,-0.1225,-0.04625,1,0,0,0.9016627999953926,0.016025320044718683,None,,,,,2,0.3540925999986939,,001,2021_Jul_23_0519,exp3,2021.2.0,59.73961890339507,
images/64.jpg,"(0.25, 0)",,,,,,,,,0,2,2,2,,,,,,,,,,,-0.1225,-0.04625,1,0,0,1.3529629000113346,0.016145120025612414,None,,,,,2,0.3213709000265226,,001,2021_Jul_23_0519,exp3,2021.2.0,59.73961890339507,
images/4.jpg,"(0.2, -0.3)",,,,,,,,,0,3,3,3,,,,,,,,,,,-0.1225,-0.04625,1,0,0,0.9998800999601372,0.01616372005082667,None,,,,,2,0.32529730000533164,,001,2021_Jul_23_0519,exp3,2021.2.0,59.73961890339507,
images/32.jpg,"(-0.3, 0.3)",,,,,,,,,0,4,4,4,,,,,,,,,,,-0.1225,-0.04625,1,0,0,1.019136500020977,0.016463420004583895,None,,,,,2,0.3137723000254482,,001,2021_Jul_23_0519,exp3,2021.2.0,59.73961890339507,
images/79.jpg,"(0.1, -0.05)",,,,,,,,,0,5,5,5,,,,,,,,,,,-0.1225,-0.04625,1,0,0,0.9197057000128552,0.016372020065318793,None,,,,,2,0.2909465999691747,,001,2021_Jul_23_0519,exp3,2021.2.0,59.73961890339507,
images/8.jpg,"(-0.3, -0.3)",,,,,,,,,0,6,6,6,,,,,,,,,,,-0.1225,-0.04625,1,0,0,1.0187115999870002,0.01650412002345547,None,,,,,2,0.3032913000206463,,001,2021_Jul_23_0519,exp3,2021.2.0,59.73961890339507,
images/38.jpg,"(-0.3, -0.25)",,,,,,,,,0,7,7,7,,,,,,,,,,,-0.1225,-0.04625,1,0,0,0.9701528999721631,0.016500519996043295,None,,,,,2,0.2861857999814674,,001,2021_Jul_23_0519,exp3,2021.2.0,59.73961890339507,
images/87.jpg,"(-0.3, 0.05)",,,,,,,,,0,8,8,8,,,,,,,,,,,-0.1225,-0.04625,1,0,0,0.8199670999892987,0.016503319959156215,None,,,,,2,0.2867973000393249,,001,2021_Jul_23_0519,exp3,2021.2.0,59.73961890339507,
images/16.jpg,"(-0.25, 0.3)",,,,,,,,,0,9,9,9,,,,,,,,,,,-0.1225,-0.04625,1,0,0,0.9030097999493591,0.016504519968293607,None,,,,,2,0.28294040000764653,,001,2021_Jul_23_0519,exp3,2021.2.0,59.73961890339507,
images/47.jpg,"(0, 0.3)",,,,,,,,,0,10,10,10,,,,,,,,,,,-0.1225,-0.04625,1,0,0,0.8867659000097774,0.016490320034790784,None,,,,,2,0.2735763000091538,,001,2021_Jul_23_0519,exp3,2021.2.0,59.73961890339507,
images/100.jpg,"(0.3, 0.2)",,,,,,,,,0,11,11,11,,,,,,,,,,,-0.1225,-0.04625,1,0,0,1.2528299000114202,0.016525920014828444,None,,,,,2,0.3608564999885857,,001,2021_Jul_23_0519,exp3,2021.2.0,59.73961890339507,
images/20.jpg,"(0.02, -0.3)",,,,,,,,,0,12,12,12,,,,,,,,,,,-0.1225,-0.04625,1,0,0,1.0531917000189424,0.016503619961440563,None,,,,,2,0.42012680001789704,,001,2021_Jul_23_0519,exp3,2021.2.0,59.73961890339507,
images/55.jpg,"(-0.1, -0.3)",,,,,,,,,0,13,13,13,,,,,,,,,,,-0.1225,-0.04625,1,0,0,2.188030000019353,0.016501920006703585,None,,,,,2,0.500147000013385,,001,2021_Jul_23_0519,exp3,2021.2.0,59.73961890339507,
images/128.jpg,"(0.3, 0.1)",,,,,,,,,0,14,14,14,,,,,,,,,,,-0.1225,-0.04625,1,0,0,1.2531679999665357,0.016503920021932572,None,,,,,2,0.29991960001643747,,001,2021_Jul_23_0519,exp3,2021.2.0,59.73961890339507,
images/2.jpg,"(0.05, 0.01)",,,,,,,,,,,,,0,0,0,0,,,,,,,-0.12875,-0.0825,1,0,0,1.388629299995955,0.01649812003597617,None,,,,,,,,001,2021_Jul_23_0519,exp3,2021.2.0,59.73961890339507,
images/27.jpg,"(-0.3, 0.15)",,,,,,,,,,,,,0,1,1,1,,,,,,,-0.12875,-0.0825,1,0,0,1.557804899988696,0.016413219971582294,None,,,,,,,,001,2021_Jul_23_0519,exp3,2021.2.0,59.73961890339507,
images/64.jpg,"(0.25, 0)",,,,,,,,,,,,,0,2,2,2,,,,,,,-0.12875,-0.0825,1,0,0,1.820808099990245,0.016355119994841516,None,,,,,,,,001,2021_Jul_23_0519,exp3,2021.2.0,59.73961890339507,
images/4.jpg,"(0.2, -0.3)",,,,,,,,,,,,,0,3,3,3,,,,,,,-0.12875,-0.0825,1,0,0,2.3720185999991372,0.01629982003942132,None,,,,,,,,001,2021_Jul_23_0519,exp3,2021.2.0,59.73961890339507,
images/32.jpg,"(-0.3, 0.3)",,,,,,,,,,,,,0,4,4,4,,,,,,,-0.12875,-0.0825,1,0,0,2.3565509999752976,0.016518220014404505,None,,,,,,,,001,2021_Jul_23_0519,exp3,2021.2.0,59.73961890339507,
images/79.jpg,"(0.1, -0.05)",,,,,,,,,,,,,0,5,5,5,,,,,,,-0.12875,-0.0825,1,0,0,1.7044101000064984,0.016219420067500323,None,,,,,,,,001,2021_Jul_23_0519,exp3,2021.2.0,59.73961890339507,
images/8.jpg,"(-0.3, -0.3)",,,,,,,,,,,,,0,6,6,6,,,,,,,-0.12875,-0.0825,1,0,0,1.5366456999909133,0.016384620044846088,None,,,,,,,,001,2021_Jul_23_0519,exp3,2021.2.0,59.73961890339507,
images/38.jpg,"(-0.3, -0.25)",,,,,,,,,,,,,0,7,7,7,,,,,,,-0.12875,-0.0825,1,0,0,1.9383075999794528,0.01633351994678378,None,,,,,,,,001,2021_Jul_23_0519,exp3,2021.2.0,59.73961890339507,
images/87.jpg,"(-0.3, 0.05)",,,,,,,,,,,,,0,8,8,8,,,,,,,-0.12875,-0.0825,1,0,0,1.8705583999981172,0.016528420092072338,None,,,,,,,,001,2021_Jul_23_0519,exp3,2021.2.0,59.73961890339507,
images/16.jpg,"(-0.25, 0.3)",,,,,,,,,,,,,0,9,9,9,,,,,,,-0.12875,-0.0825,1,0,0,1.9045802000327967,0.01648082007886842,None,,,,,,,,001,2021_Jul_23_0519,exp3,2021.2.0,59.73961890339507,
images/47.jpg,"(0, 0.3)",,,,,,,,,,,,,0,10,10,10,,,,,,,-0.12875,-0.0825,1,0,0,0.7224753999616951,0.016506319981999695,None,,,,,,,,001,2021_Jul_23_0519,exp3,2021.2.0,59.73961890339507,
images/100.jpg,"(0.3, 0.2)",,,,,,,,,,,,,0,11,11,11,,,,,,,-0.12875,-0.0825,1,0,0,0.718624799977988,0.01653952000197023,None,,,,,,,,001,2021_Jul_23_0519,exp3,2021.2.0,59.73961890339507,
images/20.jpg,"(0.02, -0.3)",,,,,,,,,,,,,0,12,12,12,,,,,,,-0.12875,-0.0825,1,0,0,0.8368210000335239,0.016498719982337207,None,,,,,,,,001,2021_Jul_23_0519,exp3,2021.2.0,59.73961890339507,
images/55.jpg,"(-0.1, -0.3)",,,,,,,,,,,,,0,13,13,13,,,,,,,-0.12875,-0.0825,1,0,0,0.8528950000181794,0.016522420046385378,None,,,,,,,,001,2021_Jul_23_0519,exp3,2021.2.0,59.73961890339507,
images/128.jpg,"(0.3, 0.1)",,,,,,,,,,,,,0,14,14,14,,,,,,,-0.12875,-0.0825,1,0,0,0.6020506999921054,0.016515220049768686,None,,,,,,,,001,2021_Jul_23_0519,exp3,2021.2.0,59.73961890339507,
